{
  "resourceType": "Bundle",
  "id": "PASClaimInquiryBundleExample",
  "meta": {
    "profile": [
      "http://hl7.org/fhir/us/davinci-pas/StructureDefinition/profile-pas-inquiry-request-bundle"
    ]
  },
  "identifier": {
    "system": "http://example.org/SUBMITTER_TRANSACTION_IDENTIFIER",
    "value": "5269367"
  },
  "type": "collection",
  "timestamp": "2005-05-02T11:01:00+05:00",
  "entry": [
    {
      "fullUrl": "http://example.org/fhir/Claim/PASClaimInquiryExample",
      "resource": {
        "resourceType": "Claim",
        "id": "860150",
        "text": {
          "status": "generated",
          "div": "<div xmlns=\"http://www.w3.org/1999/xhtml\">A human-readable rendering of the Claim</div>"
        },
        "identifier": [
          {
            "system": "http://happypdocs.com/claim",
            "value": "8612345"
          }
        ],
        "status": "active",
        "type": {
          "coding": [
            {
              "system": "http://terminology.hl7.org/CodeSystem/claim-type",
              "code": "professional"
            }
          ]
        },
        "use": "claim",
        "patient": {
          "reference": "Patient/SubscriberExample"
        },
        "created": "2014-08-16",
        "insurer": {
          "reference": "Organization/InsurerExample"
        },
        "provider": {
          "reference": "Organization/UMOExample"
        },
        "priority": {
          "coding": [
            {
              "code": "normal"
            }
          ]
        },
        "payee": {
          "type": {
            "coding": [
              {
                "code": "provider"
              }
            ]
          }
        },
        "careTeam": [
          {
            "sequence": 1,
            "provider": {
              "reference": "Practitioner/Practitioner-1011"
            }
          }
        ],
        "diagnosis": [
          {
            "sequence": 1,
            "diagnosisCodeableConcept": {
              "coding": [
                {
                  "code": "654456"
                }
              ]
            }
          }
        ],
        "insurance": [
          {
            "sequence": 1,
            "focal": true,
            "coverage": {
              "reference": "Coverage/InsuranceExample"
            }
          }
        ],
        "item": [
          {
            "sequence": 1,
            "careTeamSequence": [
              1
            ],
            "productOrService": {
              "coding": [
                {
                  "system": "http://hl7.org/fhir/ex-serviceproduct",
                  "code": "exam"
                }
              ]
            },
            "servicedDate": "2014-08-16",
            "unitPrice": {
              "value": 75.00,
              "currency": "USD"
            },
            "net": {
              "value": 75.00,
              "currency": "USD"
            }
          }
        ]
      }
    },
    {
      "fullUrl": "http://example.org/fhir/Patient/SubscriberExample",
      "resource": {
        "resourceType": "Patient",
        "id": "SubscriberExample",
        "meta": {
          "profile": [
            "http://hl7.org/fhir/us/davinci-pas/StructureDefinition/profile-subscriber"
          ]
        },
        "text": {
          "status": "extensions",
          "div": "<div xmlns=\"http://www.w3.org/1999/xhtml\"><p><b>Generated Narrative</b></p><p><b>MilitaryStatus</b>: <span title=\"Codes: {https://codesystem.x12.org/005010/584 RU}\">RU</span></p><p><b>identifier</b>: id: 12345678901</p><p><b>name</b>: JOE SMITH </p><p><b>gender</b>: male</p></div>"
        },
        "extension": [
          {
            "url": "http://hl7.org/fhir/us/davinci-pas/StructureDefinition/extension-militaryStatus",
            "valueCodeableConcept": {
              "coding": [
                {
                  "system": "https://codesystem.x12.org/005010/584",
                  "code": "RU"
                }
              ]
            }
          }
        ],
        "identifier": [
        {
          "use" : "usual",
          "type" : {
            "coding" : [
              {
                "system" : "http://terminology.hl7.org/CodeSystem/v2-0203",
                "code" : "MR",
                "display" : "Medical Record Number"
              }
            ],
            "text" : "Medical Record Number"
          },
          "system" : "http://hospital.smarthealthit.org",
          "value" : "111111111"
        },
                {
          "use" : "usual",
          "type" : {
            "coding" : [
              {
                "system" : "http://terminology.hl7.org/CodeSystem/v2-0203",
                "code" : "SS",
                "display" : "Medical Record Number"
              }
            ],
            "text" : "Medical Record Number"
          },
          "system" : "http://hospital.smarthealthit.org",
          "value" : "3333333333"
        }
        ],
        "name": [
          {
            "family": "SMITH",
            "given": [
              "JOE",
              "Nathan"
            ],
            "suffix": [
              "Kwok",
              "Lee"
            ]
          }
        ],
        "birthDate" : "1987-02-20",
        "address" : [
          {
            "use" : "old",
            "line" : [
              "49 Meadow St",
              "suite 123"
            ],
            "city" : "Mounds",
            "state" : "OK",
            "postalCode" : "74047",
            "country" : "US",
            "period" : {
              "start" : "2016-12-06",
              "end" : "2020-07-22"
            }
          },
          {
            "line" : [
              "183 Mountain View St",
              "suite 123"
            ],
            "city" : "Mounds",
            "state" : "OK",
            "postalCode" : "74048",
            "country" : "US",
            "period" : {
              "start" : "2020-07-22"
            }
          }
        ],
        "gender": "male"
      }
    },
    {
      "fullUrl": "http://52.90.126.238:8080/fhir/baseDstu3/PractitionerRole/PractitionerRole-1",
      "resource": {
        "resourceType": "PractitionerRole",
        "id": "PractitionerRole-1",
        "meta": {
          "profile": [
            "http://hl7.org/fhir/us/core/StructureDefinition/us-core-practitionerrole"
          ]
        },
        "text": {
          "status": "generated",
          "div": "<div xmlns=\"http://www.w3.org/1999/xhtml\"><p><b>Generated Narrative</b></p><p><b>practitioner</b>: <a href=\"#Practitioner_Practitioner-1011\">Brenda Jennings Richard MD. Generated Summary: id: 000001011 (OFFICIAL), id: 9999991011 (OFFICIAL), id: d46f70565a1042f6a6ece48dd81b408f (OFFICIAL); Brenda Jennings Richard ; Phone: 313-555-6868, Phone: 313-555-6443; gender: female; birthDate: 1976-11-15</a></p><p><b>organization</b>: <a href=\"Organization-acme-lab.html\">Acme Lab. Generated Summary: id: 1144221847, id: 12D4567890; active; <span title=\"Codes: {http://terminology.hl7.org/CodeSystem/organization-type prov}\">Healthcare Provider</span>; name: Acme Labs; Phone: (+1) 734-677-7777, hq@acme.org</a></p><p><b>code</b>: <span title=\"Codes: {http://nucc.org/provider-taxonomy 261QP2300X}\">Primary Care Clinic/Center</span></p><p><b>specialty</b>: <span title=\"Codes: {http://nucc.org/provider-taxonomy 208D00000X}\">General Practice Physician</span></p><p><b>location</b>: <a href=\"Location-hl7east.html\">Health Level Seven International. Generated Summary: id: 29; status: active; name: Health Level Seven International - Amherst; description: HL7 Headquarters - East; Phone: (+1) 734-677-7777</a></p><p><b>endpoint</b>: </p><ul><li><a href=\"#Endpoint_71\">Westwood Physicians Organization ADT. Generated Summary: status: active; <span title=\"{http://terminology.hl7.org/CodeSystem/endpoint-connection-type direct-project}\">Direct Project</span>; name: Brenda.Jennings.Richard.MD@direct.example.org; <span title=\"Codes: {urn:oid:1.3.6.1.4.1.19376.1.2.3 urn:hl7-org:sdwg:ccda-structuredBody:1.1}\">urn:hl7-org:sdwg:ccda-structuredBody:1.1</span>; payloadMimeType: text/xml; address: mailto:Brenda.Jennings.Richard.MD@direct.example.org</a></li><li><a href=\"#Endpoint_71\">Brenda.Jennings.Richard.MD@direct.example.org. Generated Summary: status: active; <span title=\"{http://terminology.hl7.org/CodeSystem/endpoint-connection-type direct-project}\">Direct Project</span>; name: Brenda.Jennings.Richard.MD@direct.example.org; <span title=\"Codes: {urn:oid:1.3.6.1.4.1.19376.1.2.3 urn:hl7-org:sdwg:ccda-structuredBody:1.1}\">urn:hl7-org:sdwg:ccda-structuredBody:1.1</span>; payloadMimeType: text/xml; address: mailto:Brenda.Jennings.Richard.MD@direct.example.org</a></li></ul></div>"
        },
        "practitioner": {
          "reference": "Practitioner/Practitioner-1011",
          "display": "Brenda Jennings Richard MD"
        },
        "organization": {
          "reference": "Organization/acme-lab",
          "display": "Acme Lab"
        },
        "code": [
          {
            "coding": [
              {
                "system": "http://nucc.org/provider-taxonomy",
                "code": "261QP2300X",
                "display": "Primary Care Clinic/Center"
              }
            ]
          }
        ],
        "specialty": [
          {
            "coding": [
              {
                "system": "http://nucc.org/provider-taxonomy",
                "code": "208D00000X",
                "display": "General Practice Physician"
              }
            ]
          }
        ],
        "location": [
          {
            "reference": "Location/hl7east",
            "display": "Health Level Seven International"
          }
        ],
        "endpoint": [
          {
            "reference": "http://52.90.126.238:8080/fhir/baseDstu3/Endpoint/Endpoint-71",
            "display": "Westwood Physicians Organization ADT"
          },
          {
            "reference": "http://52.90.126.238:8080/fhir/baseDstu3/Endpoint/Endpoint-71",
            "display": "Brenda.Jennings.Richard.MD@direct.example.org"
          }
        ]
      },
      "search": {
        "mode": "match"
      }
    },
    {
      "fullUrl": "http://52.90.126.238:8080/fhir/baseDstu3/Practitioner/Practitioner-1011",
      "resource": {
        "resourceType": "Practitioner",
        "id": "Practitioner-1011",
        "meta": {
          "profile": [
            "http://hl7.org/fhir/us/core/StructureDefinition/us-core-practitioner"
          ]
        },
        "text": {
          "status": "generated",
          "div": "<div xmlns=\"http://www.w3.org/1999/xhtml\"><p><b>Generated Narrative</b></p><p><b>identifier</b>: id: 000001011 (OFFICIAL), id: 9999991011 (OFFICIAL), id: d46f70565a1042f6a6ece48dd81b408f (OFFICIAL)</p><p><b>name</b>: Brenda Jennings Richard </p><p><b>telecom</b>: ph: 313-555-6868(HOME), ph: 313-555-6443(WORK)</p><p><b>address</b>: 346 W Plum Avenu Dearborn MI 48123</p><p><b>gender</b>: female</p><p><b>birthDate</b>: 1976-11-15</p><h3>Qualifications</h3><table class=\"grid\"><tr><td>-</td><td><b>Identifier</b></td><td><b>Code</b></td><td><b>Issuer</b></td></tr><tr><td>*</td><td>Michigan Medical License: LARA-1011 (OFFICIAL)</td><td><span title=\"Codes: {http://michigan.gov/lara/license-type 4305}\">Medical Doctor</span></td><td><span>Michigan Department of Licensing and Regulatory Affairs</span></td></tr></table></div>"
        },
        "identifier": [
          {
            "use": "official",
            "system": "http://hl7.org/fhir/sid/us-ssn",
            "value": "000001011"
          },
          {
            "use": "official",
            "system": "http://hl7.org/fhir/sid/us-npi",
            "value": "9999991011"
          },
          {
            "use": "official",
            "system": "http://mihin.org/fhir/cks",
            "value": "d46f70565a1042f6a6ece48dd81b408f"
          }
        ],
        "name": [
          {
            "family": "Richard",
            "given": [
              "Brenda",
              "Jennings"
            ],
            "suffix": [
              "MD"
            ]
          }
        ],
        "telecom": [
          {
            "system": "phone",
            "value": "313-555-6868",
            "use": "home"
          },
          {
            "system": "phone",
            "value": "313-555-6443",
            "use": "work"
          }
        ],
        "address": [
          {
            "text": "346 W Plum Avenu Dearborn MI 48123",
            "line": [
              "346 W Plum Avenue"
            ],
            "city": "Dearborn",
            "state": "MI",
            "postalCode": "48126"
          }
        ],
        "gender": "female",
        "birthDate": "1976-11-15",
        "qualification": [
          {
            "identifier": [
              {
                "use": "official",
                "type": {
                  "coding": [
                    {
                      "system": "http://terminology.hl7.org/CodeSystem/v2-0203",
                      "code": "MD",
                      "display": "Medical License number"
                    }
                  ],
                  "text": "Michigan Medical License"
                },
                "system": "http://michigan.gov/fhir/medical-license",
                "value": "LARA-1011",
                "assigner": {
                  "display": "State of Michigan"
                }
              }
            ],
            "code": {
              "coding": [
                {
                  "system": "http://michigan.gov/lara/license-type",
                  "code": "4305",
                  "display": "Medical Doctor"
                }
              ]
            },
            "issuer": {
              "display": "Michigan Department of Licensing and Regulatory Affairs"
            }
          }
        ]
      },
      "search": {
        "mode": "include"
      }
    },
    {
      "fullUrl": "http://example.org/fhir/Organization/InsurerExample",
      "resource": {
        "resourceType": "Organization",
        "id": "InsurerExample",
        "meta": {
          "profile": [
            "http://hl7.org/fhir/us/davinci-pas/StructureDefinition/profile-insurer"
          ]
        },
        "text": {
          "status": "generated",
          "div": "<div xmlns=\"http://www.w3.org/1999/xhtml\"><p><b>Generated Narrative</b></p><p><b>identifier</b>: id: 789312</p><p><b>active</b>: true</p><p><b>type</b>: <span title=\"Codes: {https://codesystem.x12.org/005010/98 PR}\">PR</span></p><p><b>name</b>: MARYLAND CAPITAL INSURANCE COMPANY</p></div>"
        },
        "identifier": [
          {
            "system": "http://hl7.org/fhir/sid/us-npi",
            "value": "789312"
          }
        ],
        "active": true,
        "type": [
          {
            "coding": [
              {
                "system": "https://codesystem.x12.org/005010/98",
                "code": "PR"
              }
            ]
          }
        ],
        "name": "MARYLAND CAPITAL INSURANCE COMPANY",
          "telecom" : [
          {
            "system" : "phone",
            "value" : "(+1) 734-677-7777"
          },
          {
            "system" : "email",
            "value" : "customer-service@acme-clinic.org"
          }
        ],
    "address" : [
          {
            "line" : [
              "3300 Washtenaw Avenue, Suite 227"
            ],
            "city" : "Amherst",
            "state" : "MA",
            "postalCode" : "01002",
            "country" : "USA"
          }
        ]
      }
    },
    {
      "fullUrl": "http://example.org/fhir/Organization/UMOExample",
      "resource": {
        "resourceType": "Organization",
        "id": "UMOExample",
        "meta": {
          "profile": [
            "http://hl7.org/fhir/us/davinci-pas/StructureDefinition/profile-requestor"
          ]
        },
        "text": {
          "status": "generated",
          "div": "<div xmlns=\"http://www.w3.org/1999/xhtml\"><p><b>Generated Narrative</b></p><p><b>identifier</b>: id: 8189991234</p><p><b>active</b>: true</p><p><b>type</b>: <span title=\"Codes: {https://codesystem.x12.org/005010/98 X3}\">X3</span></p><p><b>name</b>: DR. JOE SMITH CORPORATION</p><p><b>address</b>: 111 1ST STREET SAN DIEGO CA 92101 US </p></div>"
        },
        "identifier": [
          {
            "system": "http://hl7.org/fhir/sid/us-npi",
            "value": "8189991234"
          }
        ],
        "active": true,
        "type": [
          {
            "coding": [
              {
                "system": "https://codesystem.x12.org/005010/98",
                "code": "X3"
              }
            ]
          }
        ],
        "name": "DR. JOE SMITH CORPORATION",
        "telecom" : [
          {
            "system" : "phone",
            "value" : "(+1) 734-677-5555"
          },
          {
            "system" : "email",
            "value" : "customer-service@acme-clinic.org"
          }
        ],
        "address": [
          {
            "line": [
              "111 1ST STREET"
            ],
            "city": "SAN DIEGO",
            "state": "CA",
            "postalCode": "92101",
            "country": "US"
          }
        ]
      }
    },
        {
      "fullUrl": "http://example.org/fhir/Coverage/InsuranceExample",
      "resource": {
        "resourceType": "Coverage",
        "id": "InsuranceExample",
        "meta": {
          "profile": [
            "http://hl7.org/fhir/us/davinci-pas/StructureDefinition/profile-coverage"
          ]
        },
          "identifier": [
        {
        "system": "http://xyz.com/codes/identifier",
          "value": "CoverageIdentifier"
        }
      ],
        "text": {
          "status": "generated",
          "div": "<div xmlns=\"http://www.w3.org/1999/xhtml\"><p><b>Generated Narrative</b></p><p><b>status</b>: active</p><p><b>beneficiary</b>: <a href=\"#Patient_SubscriberExample\">See above (Patient/SubscriberExample)</a></p><p><b>payor</b>: <a href=\"#Organization_InsurerExample\">See above (Organization/InsurerExample)</a></p></div>"
        },
        "status": "active",
      "type": {
        "coding": [
          {
          "system": "http://terminology.hl7.org/CodeSystem/v3-ActCode",
          "code": "EHCPOL",
          "display": "extended healthcare"
          }
      ]
       },        
        "beneficiary": {
          "reference": "Patient/SubscriberExample"
        },
        "payor": [
          {
            "reference": "Organization/InsurerExample"
          }
        ]
      }
    }






  ]
}